{"resourceType":"Bundle","id":"b56f0bbc-5ddd-44ea-ada9-56a7546d6705","meta":{"profile":["https://www.fhir.philips.com"]},"type":"collection","entry":[{"fullUrl":"d643403a-393e-4848-b84f-69e668d086a1","resource":{"resourceType":"12345","id":"d643403a-393e-4848-b84f-69e668d086a1","meta":{"profile":["https://www.fhir.philips.com/4.0/StructureDefinition/common/resource/general/patient-v1/ILSPatient","http://hl7.org/fhir/StructureDefinition/Patient"]},"name":[{"use":"official","family":"Cassondra","given":["Chong Miller Lowe II"]}],"telecom":[{"system":"phone","value":"1-588-311-1062","use":"work","rank":1},{"system":"phone","value":"1-418-989-4349","use":"mobile","rank":2}],"gender":"male","birthDate":"1980-08-12","deceasedBoolean":false,"address":[{"use":"home","type":"both","text":"2236 Scarlet Brook, Jeremyburgh, MO 44750-2747","line":["452 Aubrey Island"],"city":"Jamilatown","district":"New Bernard","state":"Alabama","postalCode":"37768","country":"Thailand"}]}},{"fullUrl":"Observation/1e863c4b-f326-4f6b-9b8f-9e087827b25c","resource":{"resourceType":"Observation","id":"1e863c4b-f326-4f6b-9b8f-9e087827b25c","meta":{"profile":["https://www.fhir.philips.com/4.0/StructureDefinition/cardiology/coronaryArteryDisease/score/syntaxScore-v1/CoronaryArteryDominanceObservation"]},"status":"registered","category":[{"coding":[{"system":"http://terminology.hl7.org/CodeSystem/observation-category","code":"survey","display":"survey"}]}],"code":{"coding":[{"system":"http://ncicb.nci.nih.gov/xml/owl/EVS/Thesaurus.owl","code":"C100086","display":"Coronary Artery Dominance"}]},"subject":{"reference":"Patient/d643403a-393e-4848-b84f-69e668d086a1"},"effectiveDateTime":"2022-11-18T12:08:10+00:00","valueCodeableConcept":{"coding":[{"system":"http://ncicb.nci.nih.gov/xml/owl/EVS/Thesaurus.owl","code":"C99942","display":"Coronary Artery Right Dominance"}]}}},{"fullUrl":"Observation/a37640ea-ba3f-49ba-b255-aea943a08cd6","resource":{"resourceType":"Observation","id":"a37640ea-ba3f-49ba-b255-aea943a08cd6","meta":{"profile":["https://www.fhir.philips.com/4.0/StructureDefinition/cardiology/coronaryArteryDisease/score/syntaxScore-v1/lesionSyntaxSubscore/LesionSyntaxSubscoreSegment"]},"status":"registered","category":[{"coding":[{"system":"http://terminology.hl7.org/CodeSystem/observation-category","code":"survey","display":"survey"}]}],"code":{"coding":[{"system":"http://snomed.info/sct","code":"264193005","display":"Segment"}]},"subject":{"reference":"Patient/d643403a-393e-4848-b84f-69e668d086a1"},"effectiveDateTime":"2022-11-18T12:08:10+00:00","bodySite":{"coding":[{"system":"https://syntaxscore2020.com","code":"12","display":"Intermediate/anterolateral"}]}}},{"fullUrl":"Observation/e14b2d5f-add8-41ae-89e5-88cf05903d80","resource":{"resourceType":"Observation","id":"e14b2d5f-add8-41ae-89e5-88cf05903d80","meta":{"profile":["https://www.fhir.philips.com/4.0/StructureDefinition/cardiology/coronaryArteryDisease/score/syntaxScore-v1/lesionSyntaxSubscoreTotalOcclusion/LesionSyntaxSubscoreTotalOcclusionFirstSegment"]},"status":"registered","category":[{"coding":[{"system":"http://terminology.hl7.org/CodeSystem/observation-category","code":"survey","display":"survey"}]}],"code":{"coding":[{"system":"https://www.fhir.philips.com/4.0/CodeSystem/cardiology/coronaryArteryDisease/summary-v1/CADSummaryCodeSystem","code":"FirstSegment","display":"FirstSegment"}]},"subject":{"reference":"Patient/d643403a-393e-4848-b84f-69e668d086a1"},"effectiveDateTime":"2022-11-18T12:08:11+00:00","bodySite":{"coding":[{"system":"https://syntaxscore2020.com","code":"12","display":"Intermediate/anterolateral"}]}}},{"fullUrl":"Observation/1d61d9c2-8098-4392-86e6-21f8ed361b17","resource":{"resourceType":"Observation","id":"1d61d9c2-8098-4392-86e6-21f8ed361b17","meta":{"profile":["https://www.fhir.philips.com/4.0/StructureDefinition/cardiology/coronaryArteryDisease/score/syntaxScore-v1/lesionSyntaxSubscoreTotalOcclusion/TotalOcclusionAge"]},"status":"registered","category":[{"coding":[{"system":"http://terminology.hl7.org/CodeSystem/observation-category","code":"survey","display":"survey"}]}],"code":{"coding":[{"system":"https://www.fhir.philips.com/4.0/CodeSystem/cardiology/coronaryArteryDisease/summary-v1/CADSummaryCodeSystem","code":"TOage","display":"Age of total occlusion"}]},"subject":{"reference":"Patient/d643403a-393e-4848-b84f-69e668d086a1"},"effectiveDateTime":"2022-11-18T12:08:11+00:00","valueCodeableConcept":{"coding":[{"system":"http://terminology.hl7.org/CodeSystem/v2-0532","code":"Y","display":"yes"}]}}},{"fullUrl":"Observation/a0581f86-055a-4d8d-8603-3093baefe3fb","resource":{"resourceType":"Observation","id":"a0581f86-055a-4d8d-8603-3093baefe3fb","meta":{"profile":["https://www.fhir.philips.com/4.0/StructureDefinition/cardiology/coronaryArteryDisease/score/syntaxScore-v1/lesionSyntaxSubscoreTotalOcclusion/TotalOcclusionBluntStump"]},"status":"registered","category":[{"coding":[{"system":"http://terminology.hl7.org/CodeSystem/observation-category","code":"survey","display":"survey"}]}],"code":{"coding":[{"system":"https://www.fhir.philips.com/4.0/CodeSystem/cardiology/coronaryArteryDisease/summary-v1/CADSummaryCodeSystem","code":"BluntStump","display":"Blunt Stump"}]},"subject":{"reference":"Patient/d643403a-393e-4848-b84f-69e668d086a1"},"effectiveDateTime":"2022-11-18T12:08:11+00:00","valueCodeableConcept":{"coding":[{"system":"http://radlex.org","code":"RID28473","display":"Absent"}]}}},{"fullUrl":"Observation/572a5e19-0bf7-443a-bb32-51e81d42c865","resource":{"resourceType":"Observation","id":"572a5e19-0bf7-443a-bb32-51e81d42c865","meta":{"profile":["https://www.fhir.philips.com/4.0/StructureDefinition/cardiology/coronaryArteryDisease/score/syntaxScore-v1/lesionSyntaxSubscoreTotalOcclusion/TotalOcclusionBridging"]},"status":"registered","category":[{"coding":[{"system":"http://terminology.hl7.org/CodeSystem/observation-category","code":"survey","display":"survey"}]}],"code":{"coding":[{"system":"https://www.fhir.philips.com/4.0/CodeSystem/cardiology/coronaryArteryDisease/summary-v1/CADSummaryCodeSystem","code":"Bridging","display":"Bridging"}]},"subject":{"reference":"Patient/d643403a-393e-4848-b84f-69e668d086a1"},"effectiveDateTime":"2022-11-18T12:08:11+00:00","valueCodeableConcept":{"coding":[{"system":"http://radlex.org","code":"RID28472","display":"Present"}]}}},{"fullUrl":"Observation/7c9d93cf-fae3-4b0e-9467-1b6a6589dd91","resource":{"resourceType":"Observation","id":"7c9d93cf-fae3-4b0e-9467-1b6a6589dd91","meta":{"profile":["https://www.fhir.philips.com/4.0/StructureDefinition/cardiology/coronaryArteryDisease/score/syntaxScore-v1/lesionSyntaxSubscoreTotalOcclusion/TotalOcclusionSidebranch"]},"status":"registered","category":[{"coding":[{"system":"http://terminology.hl7.org/CodeSystem/observation-category","code":"survey","display":"survey"}]}],"code":{"coding":[{"system":"https://www.fhir.philips.com/4.0/CodeSystem/cardiology/coronaryArteryDisease/summary-v1/CADSummaryCodeSystem","code":"Sidebranch","display":"Sidebranch"}]},"subject":{"reference":"Patient/d643403a-393e-4848-b84f-69e668d086a1"},"effectiveDateTime":"2022-11-18T12:08:11+00:00","valueCodeableConcept":{"coding":[{"system":"https://www.fhir.philips.com/4.0/CodeSystem/cardiology/coronaryArteryDisease/summary-v1/CADSummaryCodeSystem","code":"NoSidebranch","display":"No Sidebranch"}]}}},{"fullUrl":"Observation/628853d5-8288-44fd-8dc2-e328c27c96b7","resource":{"resourceType":"Observation","id":"628853d5-8288-44fd-8dc2-e328c27c96b7","meta":{"profile":["https://www.fhir.philips.com/4.0/StructureDefinition/cardiology/coronaryArteryDisease/score/syntaxScore-v1/lesionSyntaxSubscoreTotalOcclusion/LesionSyntaxSubscoreTotalOcclusion"]},"status":"registered","category":[{"coding":[{"system":"http://terminology.hl7.org/CodeSystem/observation-category","code":"exam","display":"Exam"}]}],"code":{"coding":[{"system":"http://ncicb.nci.nih.gov/xml/owl/EVS/Thesaurus.owl","code":"C100062","display":"Chronic Total Coronary Artery Occlusion"}]},"subject":{"reference":"Patient/d643403a-393e-4848-b84f-69e668d086a1"},"effectiveDateTime":"2022-11-18T12:08:11+00:00","valueCodeableConcept":{"coding":[{"system":"http://radlex.org","code":"RID28472","display":"Present"}]},"hasMember":[{"reference":"Observation/572a5e19-0bf7-443a-bb32-51e81d42c865"},{"reference":"Observation/e14b2d5f-add8-41ae-89e5-88cf05903d80"},{"reference":"Observation/1d61d9c2-8098-4392-86e6-21f8ed361b17"},{"reference":"Observation/a0581f86-055a-4d8d-8603-3093baefe3fb"},{"reference":"Observation/7c9d93cf-fae3-4b0e-9467-1b6a6589dd91"}],"component":[{"code":{"coding":[{"system":"http://snomed.info/sct","code":"278061009","display":"Scores (qualifier value)"}]},"valueQuantity":{"value":0,"system":"http://unitsofmeasure.org","code":"{index}"}}]}},{"fullUrl":"Observation/48359ff1-a8f6-4038-980f-c4f7176c3664","resource":{"resourceType":"Observation","id":"48359ff1-a8f6-4038-980f-c4f7176c3664","meta":{"profile":["https://www.fhir.philips.com/4.0/StructureDefinition/cardiology/coronaryArteryDisease/score/syntaxScore-v1/lesionSyntaxSubscore/LesionSyntaxSubscoreSevereTortuosity"]},"status":"registered","category":[{"coding":[{"system":"http://terminology.hl7.org/CodeSystem/observation-category","code":"survey","display":"survey"}]}],"code":{"coding":[{"system":"http://snomed.info/sct","code":"458432002","display":"Arterial tortuosity syndrome"}]},"subject":{"reference":"Patient/d643403a-393e-4848-b84f-69e668d086a1"},"effectiveDateTime":"2022-11-18T12:08:11+00:00","valueCodeableConcept":{"coding":[{"system":"http://radlex.org","code":"RID28472","display":"Present"}]}}},{"fullUrl":"Observation/6159cae2-46f7-4f08-8a8b-6ad696737b7f","resource":{"resourceType":"Observation","id":"6159cae2-46f7-4f08-8a8b-6ad696737b7f","meta":{"profile":["https://www.fhir.philips.com/4.0/StructureDefinition/cardiology/coronaryArteryDisease/score/syntaxScore-v1/lesionSyntaxSubscore/LesionSyntaxSubscoreHeavyCalcification"]},"status":"registered","category":[{"coding":[{"system":"http://terminology.hl7.org/CodeSystem/observation-category","code":"survey","display":"survey"}]}],"code":{"coding":[{"system":"http://snomed.info/sct","code":"18115005","display":"Pathologic calcification"}]},"subject":{"reference":"Patient/d643403a-393e-4848-b84f-69e668d086a1"},"effectiveDateTime":"2022-11-18T12:08:11+00:00","valueCodeableConcept":{"coding":[{"system":"http://radlex.org","code":"RID28472","display":"Present"}]}}},{"fullUrl":"Observation/b9c59685-f216-47aa-bd37-b80f8f1a1361","resource":{"resourceType":"Observation","id":"b9c59685-f216-47aa-bd37-b80f8f1a1361","meta":{"profile":["https://www.fhir.philips.com/4.0/StructureDefinition/cardiology/coronaryArteryDisease/score/syntaxScore-v1/lesionSyntaxSubscore/LesionSyntaxSubscoreThrombus"]},"status":"registered","category":[{"coding":[{"system":"http://terminology.hl7.org/CodeSystem/observation-category","code":"survey","display":"survey"}]}],"code":{"coding":[{"system":"http://snomed.info/sct","code":"396339007","display":"Thrombus"}]},"subject":{"reference":"Patient/d643403a-393e-4848-b84f-69e668d086a1"},"effectiveDateTime":"2022-11-18T12:08:11+00:00","valueCodeableConcept":{"coding":[{"system":"http://radlex.org","code":"RID28472","display":"Present"}]}}},{"fullUrl":"Observation/0f785188-1a89-4f04-815a-9b907f7735c5","resource":{"resourceType":"Observation","id":"0f785188-1a89-4f04-815a-9b907f7735c5","meta":{"profile":["https://www.fhir.philips.com/4.0/StructureDefinition/cardiology/coronaryArteryDisease/score/syntaxScore-v1/lesionSyntaxSubscore/LesionSyntaxSubscore"]},"status":"registered","category":[{"coding":[{"system":"http://terminology.hl7.org/CodeSystem/observation-category","code":"exam","display":"Exam"}]}],"code":{"coding":[{"system":"https://www.fhir.philips.com/4.0/CodeSystem/cardiology/coronaryArteryDisease/summary-v1/CADSummaryCodeSystem","code":"SyntaxScore","display":"Syntax Score"}]},"subject":{"reference":"Patient/d643403a-393e-4848-b84f-69e668d086a1"},"effectiveDateTime":"2022-11-18T12:08:12+00:00","valueQuantity":{"value":0,"system":"http://unitsofmeasure.org","code":"{index}"},"hasMember":[{"reference":"Observation/b9c59685-f216-47aa-bd37-b80f8f1a1361"},{"reference":"Observation/a37640ea-ba3f-49ba-b255-aea943a08cd6"},{"reference":"Observation/48359ff1-a8f6-4038-980f-c4f7176c3664"},{"reference":"Observation/6159cae2-46f7-4f08-8a8b-6ad696737b7f"},{"reference":"Observation/628853d5-8288-44fd-8dc2-e328c27c96b7"}]}},{"fullUrl":"Observation/3c28b6b5-405c-4308-9ea0-a4335548f155","resource":{"resourceType":"Observation","id":"3c28b6b5-405c-4308-9ea0-a4335548f155","meta":{"profile":["https://www.fhir.philips.com/4.0/StructureDefinition/cardiology/coronaryArteryDisease/score/syntaxScore-v1/lesionSyntaxSubscore/LesionSyntaxSubscoreSegment"]},"status":"registered","category":[{"coding":[{"system":"http://terminology.hl7.org/CodeSystem/observation-category","code":"survey","display":"survey"}]}],"code":{"coding":[{"system":"http://snomed.info/sct","code":"264193005","display":"Segment"}]},"subject":{"reference":"Patient/d643403a-393e-4848-b84f-69e668d086a1"},"effectiveDateTime":"2022-11-18T12:08:12+00:00","bodySite":{"coding":[{"system":"https://syntaxscore2020.com","code":"12a","display":"Obtuse marginal"}]}}},{"fullUrl":"Observation/4942e1ba-4f97-49f1-8cc1-ba78c1931162","resource":{"resourceType":"Observation","id":"4942e1ba-4f97-49f1-8cc1-ba78c1931162","meta":{"profile":["https://www.fhir.philips.com/4.0/StructureDefinition/cardiology/coronaryArteryDisease/score/syntaxScore-v1/lesionSyntaxSubscoreTotalOcclusion/LesionSyntaxSubscoreTotalOcclusionFirstSegment"]},"status":"registered","category":[{"coding":[{"system":"http://terminology.hl7.org/CodeSystem/observation-category","code":"survey","display":"survey"}]}],"code":{"coding":[{"system":"https://www.fhir.philips.com/4.0/CodeSystem/cardiology/coronaryArteryDisease/summary-v1/CADSummaryCodeSystem","code":"FirstSegment","display":"FirstSegment"}]},"subject":{"reference":"Patient/d643403a-393e-4848-b84f-69e668d086a1"},"effectiveDateTime":"2022-11-18T12:08:12+00:00","bodySite":{"coding":[{"system":"https://syntaxscore2020.com","code":"12a","display":"Obtuse marginal a"}]}}},{"fullUrl":"Observation/97fd6160-c906-44d8-bd16-0d23ac1b289a","resource":{"resourceType":"Observation","id":"97fd6160-c906-44d8-bd16-0d23ac1b289a","meta":{"profile":["https://www.fhir.philips.com/4.0/StructureDefinition/cardiology/coronaryArteryDisease/score/syntaxScore-v1/lesionSyntaxSubscoreTotalOcclusion/TotalOcclusionAge"]},"status":"registered","category":[{"coding":[{"system":"http://terminology.hl7.org/CodeSystem/observation-category","code":"survey","display":"survey"}]}],"code":{"coding":[{"system":"https://www.fhir.philips.com/4.0/CodeSystem/cardiology/coronaryArteryDisease/summary-v1/CADSummaryCodeSystem","code":"TOage","display":"Age of total occlusion"}]},"subject":{"reference":"Patient/d643403a-393e-4848-b84f-69e668d086a1"},"effectiveDateTime":"2022-11-18T12:08:12+00:00","valueCodeableConcept":{"coding":[{"system":"http://terminology.hl7.org/CodeSystem/v2-0532","code":"ASKU","display":"Unknown"}]}}},{"fullUrl":"Observation/04003f8a-73fb-479e-9875-6e48317ec310","resource":{"resourceType":"Observation","id":"04003f8a-73fb-479e-9875-6e48317ec310","meta":{"profile":["https://www.fhir.philips.com/4.0/StructureDefinition/cardiology/coronaryArteryDisease/score/syntaxScore-v1/lesionSyntaxSubscoreTotalOcclusion/TotalOcclusionBluntStump"]},"status":"registered","category":[{"coding":[{"system":"http://terminology.hl7.org/CodeSystem/observation-category","code":"survey","display":"survey"}]}],"code":{"coding":[{"system":"https://www.fhir.philips.com/4.0/CodeSystem/cardiology/coronaryArteryDisease/summary-v1/CADSummaryCodeSystem","code":"BluntStump","display":"Blunt Stump"}]},"subject":{"reference":"Patient/d643403a-393e-4848-b84f-69e668d086a1"},"effectiveDateTime":"2022-11-18T12:08:12+00:00","valueCodeableConcept":{"coding":[{"system":"http://radlex.org","code":"RID28473","display":"Absent"}]}}},{"fullUrl":"Observation/11b3b228-6a5c-4a95-b97d-8608d24169c6","resource":{"resourceType":"Observation","id":"11b3b228-6a5c-4a95-b97d-8608d24169c6","meta":{"profile":["https://www.fhir.philips.com/4.0/StructureDefinition/cardiology/coronaryArteryDisease/score/syntaxScore-v1/lesionSyntaxSubscoreTotalOcclusion/TotalOcclusionBridging"]},"status":"registered","category":[{"coding":[{"system":"http://terminology.hl7.org/CodeSystem/observation-category","code":"survey","display":"survey"}]}],"code":{"coding":[{"system":"https://www.fhir.philips.com/4.0/CodeSystem/cardiology/coronaryArteryDisease/summary-v1/CADSummaryCodeSystem","code":"Bridging","display":"Bridging"}]},"subject":{"reference":"Patient/d643403a-393e-4848-b84f-69e668d086a1"},"effectiveDateTime":"2022-11-18T12:08:12+00:00","valueCodeableConcept":{"coding":[{"system":"http://radlex.org","code":"RID28472","display":"Present"}]}}},{"fullUrl":"Observation/93bfb1eb-4100-4845-a785-de041dc30a76","resource":{"resourceType":"Observation","id":"93bfb1eb-4100-4845-a785-de041dc30a76","meta":{"profile":["https://www.fhir.philips.com/4.0/StructureDefinition/cardiology/coronaryArteryDisease/score/syntaxScore-v1/lesionSyntaxSubscoreTotalOcclusion/TotalOcclusionSidebranch"]},"status":"registered","category":[{"coding":[{"system":"http://terminology.hl7.org/CodeSystem/observation-category","code":"survey","display":"survey"}]}],"code":{"coding":[{"system":"https://www.fhir.philips.com/4.0/CodeSystem/cardiology/coronaryArteryDisease/summary-v1/CADSummaryCodeSystem","code":"Sidebranch","display":"Sidebranch"}]},"subject":{"reference":"Patient/d643403a-393e-4848-b84f-69e668d086a1"},"effectiveDateTime":"2022-11-18T12:08:12+00:00","valueCodeableConcept":{"coding":[{"system":"https://www.fhir.philips.com/4.0/CodeSystem/cardiology/coronaryArteryDisease/summary-v1/CADSummaryCodeSystem","code":"Great1.5mm","display":"All Sidebranches are greater than 1.5mm"}]}}},{"fullUrl":"Observation/ef712c3a-f24a-48c7-97ac-10c1c84c88d4","resource":{"resourceType":"Observation","id":"ef712c3a-f24a-48c7-97ac-10c1c84c88d4","meta":{"profile":["https://www.fhir.philips.com/4.0/StructureDefinition/cardiology/coronaryArteryDisease/score/syntaxScore-v1/lesionSyntaxSubscoreTotalOcclusion/LesionSyntaxSubscoreTotalOcclusion"]},"status":"registered","category":[{"coding":[{"system":"http://terminology.hl7.org/CodeSystem/observation-category","code":"exam","display":"Exam"}]}],"code":{"coding":[{"system":"http://ncicb.nci.nih.gov/xml/owl/EVS/Thesaurus.owl","code":"C100062","display":"Chronic Total Coronary Artery Occlusion"}]},"subject":{"reference":"Patient/d643403a-393e-4848-b84f-69e668d086a1"},"effectiveDateTime":"2022-11-18T12:08:12+00:00","valueCodeableConcept":{"coding":[{"system":"http://radlex.org","code":"RID28472","display":"Present"}]},"hasMember":[{"reference":"Observation/97fd6160-c906-44d8-bd16-0d23ac1b289a"},{"reference":"Observation/4942e1ba-4f97-49f1-8cc1-ba78c1931162"},{"reference":"Observation/93bfb1eb-4100-4845-a785-de041dc30a76"},{"reference":"Observation/04003f8a-73fb-479e-9875-6e48317ec310"},{"reference":"Observation/11b3b228-6a5c-4a95-b97d-8608d24169c6"}],"component":[{"code":{"coding":[{"system":"http://snomed.info/sct","code":"278061009","display":"Scores (qualifier value)"}]},"valueQuantity":{"value":0,"system":"http://unitsofmeasure.org","code":"{index}"}}]}},{"fullUrl":"Observation/16535032-bad1-41cb-a260-76831d04b312","resource":{"resourceType":"Observation","id":"16535032-bad1-41cb-a260-76831d04b312","meta":{"profile":["https://www.fhir.philips.com/4.0/StructureDefinition/cardiology/coronaryArteryDisease/score/syntaxScore-v1/lesionSyntaxSubscore/LesionSyntaxSubscoreTrifurcation"]},"status":"registered","category":[{"coding":[{"system":"http://terminology.hl7.org/CodeSystem/observation-category","code":"survey","display":"survey"}]}],"code":{"coding":[{"system":"http://snomed.info/sct","code":"441024003","display":"Trifurcation lesion of coronary artery"}]},"subject":{"reference":"Patient/d643403a-393e-4848-b84f-69e668d086a1"},"effectiveDateTime":"2022-11-18T12:08:12+00:00","valueCodeableConcept":{"coding":[{"system":"http://radlex.org","code":"RID28472","display":"Present"}]},"component":[{"code":{"coding":[{"system":"http://ncicb.nci.nih.gov/xml/owl/EVS/Thesaurus.owl","code":"C99996","display":"Number of Diseased Coronary Artery Vessels"}]},"valueCodeableConcept":{"coding":[{"system":"https://www.fhir.philips.com/4.0/CodeSystem/cardiology/coronaryArteryDisease/score/syntaxScore-v1/lesionSyntaxSubscore/TrifurcationDiseasedSegmentInvolvedCodeSystem","code":"3","display":"3 diseased segments involved"}]}}]}},{"fullUrl":"Observation/69fd1781-0bf7-45c1-b634-cb5c27e6bfa9","resource":{"resourceType":"Observation","id":"69fd1781-0bf7-45c1-b634-cb5c27e6bfa9","meta":{"profile":["https://www.fhir.philips.com/4.0/StructureDefinition/cardiology/coronaryArteryDisease/score/syntaxScore-v1/lesionSyntaxSubscore/LesionSyntaxSubscoreSevereTortuosity"]},"status":"registered","category":[{"coding":[{"system":"http://terminology.hl7.org/CodeSystem/observation-category","code":"survey","display":"survey"}]}],"code":{"coding":[{"system":"http://snomed.info/sct","code":"458432002","display":"Arterial tortuosity syndrome"}]},"subject":{"reference":"Patient/d643403a-393e-4848-b84f-69e668d086a1"},"effectiveDateTime":"2022-11-18T12:08:12+00:00","valueCodeableConcept":{"coding":[{"system":"http://radlex.org","code":"RID28473","display":"Absent"}]}}},{"fullUrl":"Observation/e85d358d-5ac3-404e-800c-ca8c9cd6798d","resource":{"resourceType":"Observation","id":"e85d358d-5ac3-404e-800c-ca8c9cd6798d","meta":{"profile":["https://www.fhir.philips.com/4.0/StructureDefinition/cardiology/coronaryArteryDisease/score/syntaxScore-v1/lesionSyntaxSubscore/LesionSyntaxSubscoreHeavyCalcification"]},"status":"registered","category":[{"coding":[{"system":"http://terminology.hl7.org/CodeSystem/observation-category","code":"survey","display":"survey"}]}],"code":{"coding":[{"system":"http://snomed.info/sct","code":"18115005","display":"Pathologic calcification"}]},"subject":{"reference":"Patient/d643403a-393e-4848-b84f-69e668d086a1"},"effectiveDateTime":"2022-11-18T12:08:13+00:00","valueCodeableConcept":{"coding":[{"system":"http://radlex.org","code":"RID28473","display":"Absent"}]}}},{"fullUrl":"Observation/75765f2e-55ac-4742-a0c3-7a245acdd236","resource":{"resourceType":"Observation","id":"75765f2e-55ac-4742-a0c3-7a245acdd236","meta":{"profile":["https://www.fhir.philips.com/4.0/StructureDefinition/cardiology/coronaryArteryDisease/score/syntaxScore-v1/lesionSyntaxSubscore/LesionSyntaxSubscoreThrombus"]},"status":"registered","category":[{"coding":[{"system":"http://terminology.hl7.org/CodeSystem/observation-category","code":"survey","display":"survey"}]}],"code":{"coding":[{"system":"http://snomed.info/sct","code":"396339007","display":"Thrombus"}]},"subject":{"reference":"Patient/d643403a-393e-4848-b84f-69e668d086a1"},"effectiveDateTime":"2022-11-18T12:08:13+00:00","valueCodeableConcept":{"coding":[{"system":"http://radlex.org","code":"RID28473","display":"Absent"}]}}},{"fullUrl":"Observation/ac06742c-52f9-400e-b73c-42df1744076f","resource":{"resourceType":"Observation","id":"ac06742c-52f9-400e-b73c-42df1744076f","meta":{"profile":["https://www.fhir.philips.com/4.0/StructureDefinition/cardiology/coronaryArteryDisease/score/syntaxScore-v1/lesionSyntaxSubscore/LesionSyntaxSubscore"]},"status":"registered","category":[{"coding":[{"system":"http://terminology.hl7.org/CodeSystem/observation-category","code":"exam","display":"Exam"}]}],"code":{"coding":[{"system":"https://www.fhir.philips.com/4.0/CodeSystem/cardiology/coronaryArteryDisease/summary-v1/CADSummaryCodeSystem","code":"SyntaxScore","display":"Syntax Score"}]},"subject":{"reference":"Patient/d643403a-393e-4848-b84f-69e668d086a1"},"effectiveDateTime":"2022-11-18T12:08:13+00:00","valueQuantity":{"value":0,"system":"http://unitsofmeasure.org","code":"{index}"},"hasMember":[{"reference":"Observation/75765f2e-55ac-4742-a0c3-7a245acdd236"},{"reference":"Observation/69fd1781-0bf7-45c1-b634-cb5c27e6bfa9"},{"reference":"Observation/e85d358d-5ac3-404e-800c-ca8c9cd6798d"},{"reference":"Observation/3c28b6b5-405c-4308-9ea0-a4335548f155"},{"reference":"Observation/ef712c3a-f24a-48c7-97ac-10c1c84c88d4"},{"reference":"Observation/16535032-bad1-41cb-a260-76831d04b312"}]}},{"fullUrl":"Observation/b8a6200d-8a79-451a-92d0-248ff2e1eba4","resource":{"resourceType":"Observation","id":"b8a6200d-8a79-451a-92d0-248ff2e1eba4","meta":{"profile":["https://www.fhir.philips.com/4.0/StructureDefinition/cardiology/coronaryArteryDisease/score/syntaxScore-v1/lesionSyntaxSubscore/LesionSyntaxSubscoreSegment"]},"status":"registered","category":[{"coding":[{"system":"http://terminology.hl7.org/CodeSystem/observation-category","code":"survey","display":"survey"}]}],"code":{"coding":[{"system":"http://snomed.info/sct","code":"264193005","display":"Segment"}]},"subject":{"reference":"Patient/d643403a-393e-4848-b84f-69e668d086a1"},"effectiveDateTime":"2022-11-18T12:08:13+00:00","bodySite":{"coding":[{"system":"https://syntaxscore2020.com","code":"12b","display":"Obtuse marginal b"}]}}},{"fullUrl":"Observation/b1dd818e-a1bb-43d9-9c6b-3af70ea05653","resource":{"resourceType":"Observation","id":"b1dd818e-a1bb-43d9-9c6b-3af70ea05653","meta":{"profile":["https://www.fhir.philips.com/4.0/StructureDefinition/cardiology/coronaryArteryDisease/score/syntaxScore-v1/lesionSyntaxSubscore/LesionSyntaxSubscoreSegment"]},"status":"registered","category":[{"coding":[{"system":"http://terminology.hl7.org/CodeSystem/observation-category","code":"survey","display":"survey"}]}],"code":{"coding":[{"system":"http://snomed.info/sct","code":"264193005","display":"Segment"}]},"subject":{"reference":"Patient/d643403a-393e-4848-b84f-69e668d086a1"},"effectiveDateTime":"2022-11-18T12:08:13+00:00","bodySite":{"coding":[{"system":"https://syntaxscore2020.com","code":"12a","display":"Obtuse marginal a"}]}}},{"fullUrl":"Observation/36d71a92-35d0-4018-84b3-80dd9ee53db6","resource":{"resourceType":"Observation","id":"36d71a92-35d0-4018-84b3-80dd9ee53db6","meta":{"profile":["https://www.fhir.philips.com/4.0/StructureDefinition/cardiology/coronaryArteryDisease/score/syntaxScore-v1/lesionSyntaxSubscore/LesionSyntaxSubscoreSegment"]},"status":"registered","category":[{"coding":[{"system":"http://terminology.hl7.org/CodeSystem/observation-category","code":"survey","display":"survey"}]}],"code":{"coding":[{"system":"http://snomed.info/sct","code":"264193005","display":"Segment"}]},"subject":{"reference":"Patient/d643403a-393e-4848-b84f-69e668d086a1"},"effectiveDateTime":"2022-11-18T12:08:13+00:00","bodySite":{"coding":[{"system":"https://syntaxscore2020.com","code":"12","display":"Intermediate/anterolateral"}]}}},{"fullUrl":"Observation/6514c9fc-7ee5-4cb5-9c3c-8dee5bc8bce2","resource":{"resourceType":"Observation","id":"6514c9fc-7ee5-4cb5-9c3c-8dee5bc8bce2","meta":{"profile":["https://www.fhir.philips.com/4.0/StructureDefinition/cardiology/coronaryArteryDisease/score/syntaxScore-v1/lesionSyntaxSubscore/LesionSyntaxSubscoreSegment"]},"status":"registered","category":[{"coding":[{"system":"http://terminology.hl7.org/CodeSystem/observation-category","code":"survey","display":"survey"}]}],"code":{"coding":[{"system":"http://snomed.info/sct","code":"264193005","display":"Segment"}]},"subject":{"reference":"Patient/d643403a-393e-4848-b84f-69e668d086a1"},"effectiveDateTime":"2022-11-18T12:08:13+00:00","bodySite":{"coding":[{"system":"https://syntaxscore2020.com","code":"11","display":"Proximal circumflex"}]}}},{"fullUrl":"Observation/c00026e9-db1f-4343-ae63-033d2e429c95","resource":{"resourceType":"Observation","id":"c00026e9-db1f-4343-ae63-033d2e429c95","meta":{"profile":["https://www.fhir.philips.com/4.0/StructureDefinition/cardiology/coronaryArteryDisease/score/syntaxScore-v1/diffuseDiseaseSmallVesselsSyntaxSubscore/DiffuseDiseaseSmallVesselsSyntaxSubscore"]},"status":"registered","category":[{"coding":[{"system":"http://terminology.hl7.org/CodeSystem/observation-category","code":"survey","display":"survey"}]}],"code":{"coding":[{"system":"http://snomed.info/sct","code":"371915000","display":"Diffuse disease of coronary artery"}]},"subject":{"reference":"Patient/d643403a-393e-4848-b84f-69e668d086a1"},"effectiveDateTime":"2022-11-18T12:08:13+00:00","valueCodeableConcept":{"coding":[{"system":"http://radlex.org","code":"RID28472","display":"Present"}]},"hasMember":[{"reference":"Observation/b8a6200d-8a79-451a-92d0-248ff2e1eba4"},{"reference":"Observation/b1dd818e-a1bb-43d9-9c6b-3af70ea05653"},{"reference":"Observation/36d71a92-35d0-4018-84b3-80dd9ee53db6"},{"reference":"Observation/6514c9fc-7ee5-4cb5-9c3c-8dee5bc8bce2"}],"component":[{"code":{"coding":[{"system":"http://snomed.info/sct","code":"278061009","display":"Scores (qualifier value)"}]},"valueQuantity":{"value":0,"system":"http://unitsofmeasure.org","code":"{index}"}}]}}]}